# Coeficientes FIR
6.23687e-19
0.00119497
0.00273108
0.00409819
0.00379426
-2.31292e-18
-0.00790467
-0.0177984
-0.0243611
-0.0204342
5.78923e-18
0.0384284
0.0897121
0.142616
0.183151
0.199528
0.186656
0.148172
0.0950776
0.0415838
6.40502e-18
-0.0231559
-0.0283399
-0.021316
-0.0097778
-2.96438e-18
0.00504614
0.00562764
0.00378294
0.00156734
6.97097e-19
-0.000935489

# Frecuencia (Hz)	Magnitud (dB)
0	-0.0109109
0.125	-0.0109116
0.25	-0.0109137
0.375	-0.0109172
0.5	-0.0109221
0.625	-0.0109284
0.75	-0.0109362
0.875	-0.0109453
1	-0.0109558
1.125	-0.0109677
1.25	-0.010981
1.375	-0.0109956
1.5	-0.0110117
1.625	-0.0110291
1.75	-0.0110479
1.875	-0.011068
2	-0.0110895
2.125	-0.0111123
2.25	-0.0111365
2.375	-0.011162
2.5	-0.0111888
2.625	-0.011217
2.75	-0.0112464
2.875	-0.0112771
3	-0.0113091
3.125	-0.0113424
3.25	-0.011377
3.375	-0.0114127
3.5	-0.0114498
3.625	-0.011488
3.75	-0.0115275
3.875	-0.0115681
4	-0.01161
4.125	-0.011653
4.25	-0.0116971
4.375	-0.0117424
4.5	-0.0117888
4.625	-0.0118363
4.75	-0.011885
4.875	-0.0119346
5	-0.0119854
5.125	-0.0120372
5.25	-0.01209
5.375	-0.0121438
5.5	-0.0121985
5.625	-0.0122543
5.75	-0.012311
5.875	-0.0123686
6	-0.0124271
6.125	-0.0124866
6.25	-0.0125468
6.375	-0.0126079
6.5	-0.0126699
6.625	-0.0127326
6.75	-0.0127961
6.875	-0.0128604
7	-0.0129254
7.125	-0.0129911
7.25	-0.0130575
7.375	-0.0131245
7.5	-0.0131922
7.625	-0.0132605
7.75	-0.0133294
7.875	-0.0133988
8	-0.0134688
8.125	-0.0135393
8.25	-0.0136103
8.375	-0.0136817
8.5	-0.0137536
8.625	-0.0138259
8.75	-0.0138986
8.875	-0.0139716
9	-0.0140449
9.125	-0.0141186
9.25	-0.0141925
9.375	-0.0142666
9.5	-0.014341
9.625	-0.0144156
9.75	-0.0144903
9.875	-0.0145651
10	-0.0146401
10.125	-0.0147151
10.25	-0.0147902
10.375	-0.0148653
10.5	-0.0149403
10.625	-0.0150154
10.75	-0.0150903
10.875	-0.0151652
11	-0.0152399
11.125	-0.0153145
11.25	-0.0153888
11.375	-0.015463
11.5	-0.0155369
11.625	-0.0156105
11.75	-0.0156838
11.875	-0.0157568
12	-0.0158294
12.125	-0.0159016
12.25	-0.0159733
12.375	-0.0160446
12.5	-0.0161154
12.625	-0.0161857
12.75	-0.0162555
12.875	-0.0163246
13	-0.0163932
13.125	-0.0164611
13.25	-0.0165283
13.375	-0.0165948
13.5	-0.0166606
13.625	-0.0167257
13.75	-0.0167899
13.875	-0.0168533
14	-0.0169159
14.125	-0.0169776
14.25	-0.0170384
14.375	-0.0170983
14.5	-0.0171572
14.625	-0.0172151
14.75	-0.0172719
14.875	-0.0173278
15	-0.0173825
15.125	-0.0174362
15.25	-0.0174887
15.375	-0.01754
15.5	-0.0175902
15.625	-0.0176391
15.75	-0.0176869
15.875	-0.0177333
16	-0.0177784
16.125	-0.0178223
16.25	-0.0178648
16.375	-0.0179059
16.5	-0.0179456
16.625	-0.0179839
16.75	-0.0180207
16.875	-0.0180561
17	-0.01809
17.125	-0.0181224
17.25	-0.0181533
17.375	-0.0181826
17.5	-0.0182103
17.625	-0.0182364
17.75	-0.0182609
17.875	-0.0182837
18	-0.0183049
18.125	-0.0183244
18.25	-0.0183422
18.375	-0.0183582
18.5	-0.0183725
18.625	-0.0183851
18.75	-0.0183959
18.875	-0.0184049
19	-0.0184121
19.125	-0.0184174
19.25	-0.018421
19.375	-0.0184226
19.5	-0.0184224
19.625	-0.0184203
19.75	-0.0184164
19.875	-0.0184105
20	-0.0184027
20.125	-0.0183929
20.25	-0.0183812
20.375	-0.0183676
20.5	-0.018352
20.625	-0.0183345
20.75	-0.0183149
20.875	-0.0182934
21	-0.0182699
21.125	-0.0182444
21.25	-0.0182168
21.375	-0.0181873
21.5	-0.0181558
21.625	-0.0181223
21.75	-0.0180867
21.875	-0.0180491
22	-0.0180095
22.125	-0.0179679
22.25	-0.0179243
22.375	-0.0178786
22.5	-0.017831
22.625	-0.0177813
22.75	-0.0177297
22.875	-0.017676
23	-0.0176203
23.125	-0.0175627
23.25	-0.0175031
23.375	-0.0174415
23.5	-0.0173779
23.625	-0.0173124
23.75	-0.0172449
23.875	-0.0171755
24	-0.0171042
24.125	-0.017031
24.25	-0.0169559
24.375	-0.016879
24.5	-0.0168001
24.625	-0.0167195
24.75	-0.016637
24.875	-0.0165527
25	-0.0164667
25.125	-0.0163789
25.25	-0.0162893
25.375	-0.016198
25.5	-0.0161051
25.625	-0.0160105
25.75	-0.0159142
25.875	-0.0158164
26	-0.015717
26.125	-0.015616
26.25	-0.0155135
26.375	-0.0154095
26.5	-0.0153041
26.625	-0.0151972
26.75	-0.015089
26.875	-0.0149794
27	-0.0148685
27.125	-0.0147563
27.25	-0.0146429
27.375	-0.0145283
27.5	-0.0144126
27.625	-0.0142958
27.75	-0.0141779
27.875	-0.014059
28	-0.0139391
28.125	-0.0138183
28.25	-0.0136966
28.375	-0.0135741
28.5	-0.0134508
28.625	-0.0133268
28.75	-0.0132022
28.875	-0.0130769
29	-0.0129511
29.125	-0.0128248
29.25	-0.012698
29.375	-0.0125709
29.5	-0.0124434
29.625	-0.0123157
29.75	-0.0121878
29.875	-0.0120598
30	-0.0119318
30.125	-0.0118037
30.25	-0.0116757
30.375	-0.0115479
30.5	-0.0114202
30.625	-0.0112929
30.75	-0.0111659
30.875	-0.0110394
31	-0.0109134
31.125	-0.010788
31.25	-0.0106632
31.375	-0.0105392
31.5	-0.010416
31.625	-0.0102938
31.75	-0.0101726
31.875	-0.0100524
32	-0.00993341
32.125	-0.00981569
32.25	-0.00969932
32.375	-0.00958439
32.5	-0.009471
32.625	-0.00935924
32.75	-0.0092492
32.875	-0.00914098
33	-0.00903467
33.125	-0.00893038
33.25	-0.00882821
33.375	-0.00872826
33.5	-0.00863063
33.625	-0.00853542
33.75	-0.00844274
33.875	-0.0083527
34	-0.00826541
34.125	-0.00818098
34.25	-0.00809951
34.375	-0.00802112
34.5	-0.00794593
34.625	-0.00787405
34.75	-0.00780559
34.875	-0.00774068
35	-0.00767943
35.125	-0.00762196
35.25	-0.0075684
35.375	-0.00751888
35.5	-0.0074735
35.625	-0.00743241
35.75	-0.00739572
35.875	-0.00736358
36	-0.0073361
36.125	-0.00731342
36.25	-0.00729567
36.375	-0.00728299
36.5	-0.00727551
36.625	-0.00727338
36.75	-0.00727672
36.875	-0.00728568
37	-0.0073004
37.125	-0.00732102
37.25	-0.00734769
37.375	-0.00738055
37.5	-0.00741975
37.625	-0.00746544
37.75	-0.00751776
37.875	-0.00757687
38	-0.00764292
38.125	-0.00771606
38.25	-0.00779645
38.375	-0.00788424
38.5	-0.00797959
38.625	-0.00808266
38.75	-0.00819361
38.875	-0.0083126
39	-0.0084398
39.125	-0.00857536
39.25	-0.00871946
39.375	-0.00887225
39.5	-0.00903392
39.625	-0.00920462
39.75	-0.00938453
39.875	-0.00957383
40	-0.00977267
40.125	-0.00998124
40.25	-0.0101997
40.375	-0.0104283
40.5	-0.0106671
40.625	-0.0109164
40.75	-0.0111762
40.875	-0.0114469
41	-0.0117286
41.125	-0.0120214
41.25	-0.0123256
41.375	-0.0126414
41.5	-0.0129688
41.625	-0.0133082
41.75	-0.0136597
41.875	-0.0140235
42	-0.0143999
42.125	-0.0147889
42.25	-0.0151908
42.375	-0.0156058
42.5	-0.016034
42.625	-0.0164758
42.75	-0.0169312
42.875	-0.0174006
43	-0.017884
43.125	-0.0183817
43.25	-0.0188939
43.375	-0.0194208
43.5	-0.0199627
43.625	-0.0205196
43.75	-0.0210919
43.875	-0.0216798
44	-0.0222834
44.125	-0.0229029
44.25	-0.0235387
44.375	-0.0241909
44.5	-0.0248596
44.625	-0.0255452
44.75	-0.0262479
44.875	-0.0269679
45	-0.0277053
45.125	-0.0284605
45.25	-0.0292336
45.375	-0.0300248
45.5	-0.0308345
45.625	-0.0316628
45.75	-0.0325099
45.875	-0.0333761
46	-0.0342616
46.125	-0.0351666
46.25	-0.0360914
46.375	-0.0370362
46.5	-0.0380013
46.625	-0.0389868
46.75	-0.039993
46.875	-0.0410201
47	-0.0420685
47.125	-0.0431382
47.25	-0.0442296
47.375	-0.0453429
47.5	-0.0464783
47.625	-0.0476361
47.75	-0.0488166
47.875	-0.0500199
48	-0.0512463
48.125	-0.0524961
48.25	-0.0537694
48.375	-0.0550667
48.5	-0.056388
48.625	-0.0577337
48.75	-0.0591039
48.875	-0.0604991
49	-0.0619193
49.125	-0.0633649
49.25	-0.0648361
49.375	-0.0663332
49.5	-0.0678564
49.625	-0.0694059
49.75	-0.0709821
49.875	-0.0725852
50	-0.0742154
50.125	-0.0758731
50.25	-0.0775584
50.375	-0.0792717
50.5	-0.0810131
50.625	-0.082783
50.75	-0.0845816
50.875	-0.0864092
51	-0.088266
51.125	-0.0901524
51.25	-0.0920685
51.375	-0.0940147
51.5	-0.0959911
51.625	-0.0979982
51.75	-0.100036
51.875	-0.102105
52	-0.104205
52.125	-0.106338
52.25	-0.108502
52.375	-0.110698
52.5	-0.112926
52.625	-0.115188
52.75	-0.117482
52.875	-0.11981
53	-0.122171
53.125	-0.124566
53.25	-0.126996
53.375	-0.129459
53.5	-0.131958
53.625	-0.134491
53.75	-0.137059
53.875	-0.139663
54	-0.142303
54.125	-0.144979
54.25	-0.147691
54.375	-0.15044
54.5	-0.153226
54.625	-0.156049
54.75	-0.158909
54.875	-0.161807
55	-0.164744
55.125	-0.167718
55.25	-0.170731
55.375	-0.173783
55.5	-0.176874
55.625	-0.180005
55.75	-0.183176
55.875	-0.186386
56	-0.189637
56.125	-0.192928
56.25	-0.196261
56.375	-0.199634
56.5	-0.203049
56.625	-0.206506
56.75	-0.210005
56.875	-0.213546
57	-0.21713
57.125	-0.220756
57.25	-0.224426
57.375	-0.22814
57.5	-0.231897
57.625	-0.235698
57.75	-0.239544
57.875	-0.243434
58	-0.24737
58.125	-0.25135
58.25	-0.255376
58.375	-0.259448
58.5	-0.263566
58.625	-0.267731
58.75	-0.271942
58.875	-0.276201
59	-0.280506
59.125	-0.284859
59.25	-0.28926
59.375	-0.29371
59.5	-0.298208
59.625	-0.302754
59.75	-0.30735
59.875	-0.311995
60	-0.31669
60.125	-0.321435
60.25	-0.32623
60.375	-0.331075
60.5	-0.335972
60.625	-0.34092
60.75	-0.345919
60.875	-0.35097
61	-0.356073
61.125	-0.361228
61.25	-0.366436
61.375	-0.371697
61.5	-0.377011
61.625	-0.382379
61.75	-0.3878
61.875	-0.393276
62	-0.398806
62.125	-0.404391
62.25	-0.410031
62.375	-0.415727
62.5	-0.421478
62.625	-0.427285
62.75	-0.433148
62.875	-0.439068
63	-0.445044
63.125	-0.451078
63.25	-0.457169
63.375	-0.463318
63.5	-0.469526
63.625	-0.475791
63.75	-0.482115
63.875	-0.488498
64	-0.49494
64.125	-0.501442
64.25	-0.508004
64.375	-0.514626
64.5	-0.521308
64.625	-0.528051
64.75	-0.534855
64.875	-0.541721
65	-0.548648
65.125	-0.555637
65.25	-0.562688
65.375	-0.569802
65.5	-0.576979
65.625	-0.584219
65.75	-0.591523
65.875	-0.59889
66	-0.606321
66.125	-0.613817
66.25	-0.621377
66.375	-0.629003
66.5	-0.636693
66.625	-0.64445
66.75	-0.652272
66.875	-0.66016
67	-0.668115
67.125	-0.676136
67.25	-0.684225
67.375	-0.692381
67.5	-0.700605
67.625	-0.708896
67.75	-0.717256
67.875	-0.725685
68	-0.734183
68.125	-0.742749
68.25	-0.751385
68.375	-0.760091
68.5	-0.768868
68.625	-0.777714
68.75	-0.786631
68.875	-0.795619
69	-0.804679
69.125	-0.81381
69.25	-0.823013
69.375	-0.832288
69.5	-0.841636
69.625	-0.851057
69.75	-0.86055
69.875	-0.870117
70	-0.879758
70.125	-0.889473
70.25	-0.899262
70.375	-0.909126
70.5	-0.919064
70.625	-0.929078
70.75	-0.939167
70.875	-0.949332
71	-0.959574
71.125	-0.969891
71.25	-0.980286
71.375	-0.990757
71.5	-1.00131
71.625	-1.01193
71.75	-1.02264
71.875	-1.03342
72	-1.04428
72.125	-1.05522
72.25	-1.06624
72.375	-1.07734
72.5	-1.08851
72.625	-1.09977
72.75	-1.11111
72.875	-1.12253
73	-1.13403
73.125	-1.14561
73.25	-1.15727
73.375	-1.16902
73.5	-1.18084
73.625	-1.19275
73.75	-1.20474
73.875	-1.21682
74	-1.22898
74.125	-1.24122
74.25	-1.25354
74.375	-1.26595
74.5	-1.27845
74.625	-1.29103
74.75	-1.30369
74.875	-1.31644
75	-1.32928
75.125	-1.3422
75.25	-1.3552
75.375	-1.3683
75.5	-1.38148
75.625	-1.39475
75.75	-1.4081
75.875	-1.42155
76	-1.43508
76.125	-1.4487
76.25	-1.46241
76.375	-1.4762
76.5	-1.49009
76.625	-1.50407
76.75	-1.51813
76.875	-1.53229
77	-1.54654
77.125	-1.56087
77.25	-1.5753
77.375	-1.58982
77.5	-1.60443
77.625	-1.61914
77.75	-1.63393
77.875	-1.64882
78	-1.6638
78.125	-1.67888
78.25	-1.69405
78.375	-1.70931
78.5	-1.72467
78.625	-1.74012
78.75	-1.75566
78.875	-1.7713
79	-1.78704
79.125	-1.80287
79.25	-1.81879
79.375	-1.83482
79.5	-1.85094
79.625	-1.86715
79.75	-1.88347
79.875	-1.89988
80	-1.91639
80.125	-1.93299
80.25	-1.9497
80.375	-1.9665
80.5	-1.9834
80.625	-2.0004
80.75	-2.0175
80.875	-2.0347
81	-2.052
81.125	-2.0694
81.25	-2.08691
81.375	-2.10451
81.5	-2.12221
81.625	-2.14002
81.75	-2.15792
81.875	-2.17593
82	-2.19405
82.125	-2.21226
82.25	-2.23058
82.375	-2.249
82.5	-2.26752
82.625	-2.28615
82.75	-2.30489
82.875	-2.32372
83	-2.34267
83.125	-2.36172
83.25	-2.38087
83.375	-2.40013
83.5	-2.41949
83.625	-2.43896
83.75	-2.45854
83.875	-2.47823
84	-2.49802
84.125	-2.51792
84.25	-2.53793
84.375	-2.55805
84.5	-2.57827
84.625	-2.59861
84.75	-2.61905
84.875	-2.6396
85	-2.66027
85.125	-2.68104
85.25	-2.70192
85.375	-2.72292
85.5	-2.74402
85.625	-2.76524
85.75	-2.78657
85.875	-2.80801
86	-2.82956
86.125	-2.85122
86.25	-2.873
86.375	-2.89489
86.5	-2.9169
86.625	-2.93902
86.75	-2.96125
86.875	-2.98359
87	-3.00606
87.125	-3.02863
87.25	-3.05133
87.375	-3.07413
87.5	-3.09706
87.625	-3.1201
87.75	-3.14325
87.875	-3.16653
88	-3.18992
88.125	-3.21343
88.25	-3.23705
88.375	-3.2608
88.5	-3.28466
88.625	-3.30864
88.75	-3.33275
88.875	-3.35697
89	-3.38131
89.125	-3.40577
89.25	-3.43035
89.375	-3.45505
89.5	-3.47988
89.625	-3.50482
89.75	-3.52989
89.875	-3.55508
90	-3.58039
90.125	-3.60582
90.25	-3.63138
90.375	-3.65706
90.5	-3.68286
90.625	-3.70879
90.75	-3.73484
90.875	-3.76102
91	-3.78732
91.125	-3.81375
91.25	-3.8403
91.375	-3.86698
91.5	-3.89379
91.625	-3.92072
91.75	-3.94778
91.875	-3.97496
92	-4.00228
92.125	-4.02972
92.25	-4.05729
92.375	-4.08499
92.5	-4.11282
92.625	-4.14078
92.75	-4.16886
92.875	-4.19708
93	-4.22543
93.125	-4.25391
93.25	-4.28252
93.375	-4.31126
93.5	-4.34013
93.625	-4.36914
93.75	-4.39827
93.875	-4.42754
94	-4.45695
94.125	-4.48648
94.25	-4.51615
94.375	-4.54596
94.5	-4.5759
94.625	-4.60597
94.75	-4.63618
94.875	-4.66653
95	-4.69701
95.125	-4.72763
95.25	-4.75838
95.375	-4.78927
95.5	-4.8203
95.625	-4.85147
95.75	-4.88277
95.875	-4.91421
96	-4.94579
96.125	-4.97751
96.25	-5.00937
96.375	-5.04138
96.5	-5.07352
96.625	-5.1058
96.75	-5.13822
96.875	-5.17078
97	-5.20349
97.125	-5.23634
97.25	-5.26933
97.375	-5.30246
97.5	-5.33573
97.625	-5.36915
97.75	-5.40272
97.875	-5.43643
98	-5.47028
98.125	-5.50428
98.25	-5.53842
98.375	-5.57271
98.5	-5.60715
98.625	-5.64173
98.75	-5.67646
98.875	-5.71134
99	-5.74636
99.125	-5.78153
99.25	-5.81686
99.375	-5.85233
99.5	-5.88795
99.625	-5.92372
99.75	-5.95964
99.875	-5.99571
100	-6.03193
100.125	-6.06831
100.25	-6.10483
100.375	-6.14151
100.5	-6.17834
100.625	-6.21533
100.75	-6.25246
100.875	-6.28975
101	-6.3272
101.125	-6.3648
101.25	-6.40256
101.375	-6.44047
101.5	-6.47853
101.625	-6.51676
101.75	-6.55514
101.875	-6.59368
102	-6.63237
102.125	-6.67122
102.25	-6.71024
102.375	-6.74941
102.5	-6.78874
102.625	-6.82823
102.75	-6.86788
102.875	-6.90769
103	-6.94766
103.125	-6.9878
103.25	-7.0281
103.375	-7.06856
103.5	-7.10918
103.625	-7.14996
103.75	-7.19091
103.875	-7.23203
104	-7.27331
104.125	-7.31475
104.25	-7.35636
104.375	-7.39814
104.5	-7.44008
104.625	-7.48219
104.75	-7.52447
104.875	-7.56691
105	-7.60953
105.125	-7.65231
105.25	-7.69527
105.375	-7.73839
105.5	-7.78168
105.625	-7.82515
105.75	-7.86878
105.875	-7.91259
106	-7.95657
106.125	-8.00073
106.25	-8.04505
106.375	-8.08956
106.5	-8.13423
106.625	-8.17908
106.75	-8.22411
106.875	-8.26931
107	-8.31469
107.125	-8.36025
107.25	-8.40598
107.375	-8.45189
107.5	-8.49798
107.625	-8.54425
107.75	-8.5907
107.875	-8.63733
108	-8.68414
108.125	-8.73114
108.25	-8.77831
108.375	-8.82567
108.5	-8.8732
108.625	-8.92093
108.75	-8.96883
108.875	-9.01693
109	-9.0652
109.125	-9.11367
109.25	-9.16231
109.375	-9.21115
109.5	-9.26017
109.625	-9.30939
109.75	-9.35879
109.875	-9.40837
110	-9.45815
110.125	-9.50812
110.25	-9.55828
110.375	-9.60864
110.5	-9.65918
110.625	-9.70992
110.75	-9.76085
110.875	-9.81198
111	-9.8633
111.125	-9.91481
111.25	-9.96652
111.375	-10.0184
111.5	-10.0705
111.625	-10.1228
111.75	-10.1753
111.875	-10.228
112	-10.2809
112.125	-10.334
112.25	-10.3873
112.375	-10.4408
112.5	-10.4945
112.625	-10.5485
112.75	-10.6026
112.875	-10.6569
113	-10.7114
113.125	-10.7661
113.25	-10.8211
113.375	-10.8762
113.5	-10.9316
113.625	-10.9871
113.75	-11.0429
113.875	-11.0989
114	-11.1551
114.125	-11.2115
114.25	-11.2681
114.375	-11.3249
114.5	-11.3819
114.625	-11.4392
114.75	-11.4967
114.875	-11.5543
115	-11.6122
115.125	-11.6704
115.25	-11.7287
115.375	-11.7873
115.5	-11.846
115.625	-11.905
115.75	-11.9642
115.875	-12.0237
116	-12.0833
116.125	-12.1432
116.25	-12.2033
116.375	-12.2637
116.5	-12.3242
116.625	-12.385
116.75	-12.4461
116.875	-12.5073
117	-12.5688
117.125	-12.6305
117.25	-12.6924
117.375	-12.7546
117.5	-12.817
117.625	-12.8796
117.75	-12.9425
117.875	-13.0056
118	-13.069
118.125	-13.1325
118.25	-13.1964
118.375	-13.2604
118.5	-13.3247
118.625	-13.3893
118.75	-13.4541
118.875	-13.5191
119	-13.5844
119.125	-13.6499
119.25	-13.7156
119.375	-13.7817
119.5	-13.8479
119.625	-13.9144
119.75	-13.9812
119.875	-14.0482
120	-14.1155
120.125	-14.183
120.25	-14.2508
120.375	-14.3188
120.5	-14.3871
120.625	-14.4556
120.75	-14.5244
120.875	-14.5935
121	-14.6628
121.125	-14.7324
121.25	-14.8022
121.375	-14.8723
121.5	-14.9427
121.625	-15.0133
121.75	-15.0843
121.875	-15.1554
122	-15.2269
122.125	-15.2986
122.25	-15.3706
122.375	-15.4429
122.5	-15.5154
122.625	-15.5882
122.75	-15.6613
122.875	-15.7347
123	-15.8084
123.125	-15.8823
123.25	-15.9565
123.375	-16.031
123.5	-16.1058
123.625	-16.1809
123.75	-16.2562
123.875	-16.3319
124	-16.4078
124.125	-16.4841
124.25	-16.5606
124.375	-16.6374
124.5	-16.7145
124.625	-16.792
124.75	-16.8697
124.875	-16.9477
125	-17.026
125.125	-17.1046
125.25	-17.1836
125.375	-17.2628
125.5	-17.3424
125.625	-17.4222
125.75	-17.5024
125.875	-17.5829
126	-17.6636
126.125	-17.7448
126.25	-17.8262
126.375	-17.9079
126.5	-17.99
126.625	-18.0724
126.75	-18.1551
126.875	-18.2382
127	-18.3215
127.125	-18.4052
127.25	-18.4893
127.375	-18.5736
127.5	-18.6583
127.625	-18.7434
127.75	-18.8288
127.875	-18.9145
128	-19.0006
128.125	-19.087
128.25	-19.1737
128.375	-19.2608
128.5	-19.3483
128.625	-19.4361
128.75	-19.5243
128.875	-19.6128
129	-19.7017
129.125	-19.7909
129.25	-19.8805
129.375	-19.9705
129.5	-20.0609
129.625	-20.1516
129.75	-20.2427
129.875	-20.3341
130	-20.426
130.125	-20.5182
130.25	-20.6108
130.375	-20.7038
130.5	-20.7971
130.625	-20.8909
130.75	-20.985
130.875	-21.0796
131	-21.1745
131.125	-21.2699
131.25	-21.3656
131.375	-21.4618
131.5	-21.5583
131.625	-21.6553
131.75	-21.7527
131.875	-21.8505
132	-21.9487
132.125	-22.0474
132.25	-22.1464
132.375	-22.2459
132.5	-22.3458
132.625	-22.4462
132.75	-22.547
132.875	-22.6482
133	-22.7499
133.125	-22.852
133.25	-22.9546
133.375	-23.0576
133.5	-23.1611
133.625	-23.2651
133.75	-23.3695
133.875	-23.4743
134	-23.5797
134.125	-23.6855
134.25	-23.7918
134.375	-23.8986
134.5	-24.0059
134.625	-24.1136
134.75	-24.2219
134.875	-24.3306
135	-24.4399
135.125	-24.5496
135.25	-24.6599
135.375	-24.7707
135.5	-24.8819
135.625	-24.9938
135.75	-25.1061
135.875	-25.219
136	-25.3324
136.125	-25.4464
136.25	-25.5609
136.375	-25.6759
136.5	-25.7915
136.625	-25.9077
136.75	-26.0244
136.875	-26.1417
137	-26.2596
137.125	-26.3781
137.25	-26.4972
137.375	-26.6168
137.5	-26.737
137.625	-26.8579
137.75	-26.9794
137.875	-27.1014
138	-27.2241
138.125	-27.3475
138.25	-27.4714
138.375	-27.596
138.5	-27.7213
138.625	-27.8472
138.75	-27.9738
138.875	-28.101
139	-28.2289
139.125	-28.3575
139.25	-28.4868
139.375	-28.6168
139.5	-28.7475
139.625	-28.8789
139.75	-29.0111
139.875	-29.1439
140	-29.2775
140.125	-29.4119
140.25	-29.547
140.375	-29.6829
140.5	-29.8195
140.625	-29.9569
140.75	-30.0952
140.875	-30.2342
141	-30.374
141.125	-30.5147
141.25	-30.6562
141.375	-30.7986
141.5	-30.9418
141.625	-31.0858
141.75	-31.2308
141.875	-31.3766
142	-31.5234
142.125	-31.671
142.25	-31.8196
142.375	-31.9691
142.5	-32.1196
142.625	-32.2711
142.75	-32.4235
142.875	-32.5769
143	-32.7314
143.125	-32.8868
143.25	-33.0434
143.375	-33.2009
143.5	-33.3596
143.625	-33.5193
143.75	-33.6802
143.875	-33.8422
144	-34.0053
144.125	-34.1696
144.25	-34.3351
144.375	-34.5017
144.5	-34.6696
144.625	-34.8388
144.75	-35.0092
144.875	-35.181
145	-35.354
145.125	-35.5284
145.25	-35.7041
145.375	-35.8812
145.5	-36.0598
145.625	-36.2398
145.75	-36.4213
145.875	-36.6042
146	-36.7887
146.125	-36.9748
146.25	-37.1625
146.375	-37.3518
146.5	-37.5428
146.625	-37.7354
146.75	-37.9299
146.875	-38.126
147	-38.3241
147.125	-38.5239
147.25	-38.7257
147.375	-38.9295
147.5	-39.1352
147.625	-39.343
147.75	-39.5529
147.875	-39.7649
148	-39.9792
148.125	-40.1957
148.25	-40.4146
148.375	-40.6358
148.5	-40.8595
148.625	-41.0858
148.75	-41.3146
148.875	-41.5461
149	-41.7804
149.125	-42.0175
149.25	-42.2575
149.375	-42.5005
149.5	-42.7467
149.625	-42.9961
149.75	-43.2488
149.875	-43.5049
150	-43.7646
150.125	-44.028
150.25	-44.2952
150.375	-44.5663
150.5	-44.8415
150.625	-45.121
150.75	-45.4049
150.875	-45.6934
151	-45.9866
151.125	-46.2848
151.25	-46.5883
151.375	-46.8971
151.5	-47.2115
151.625	-47.5319
151.75	-47.8584
151.875	-48.1914
152	-48.5312
152.125	-48.878
152.25	-49.2322
152.375	-49.5943
152.5	-49.9646
152.625	-50.3436
152.75	-50.7316
152.875	-51.1292
153	-51.537
153.125	-51.9554
153.25	-52.385
153.375	-52.8265
153.5	-53.2806
153.625	-53.7478
153.75	-54.2289
153.875	-54.7245
154	-55.2354
154.125	-55.762
154.25	-56.305
154.375	-56.8645
154.5	-57.4405
154.625	-58.0327
154.75	-58.6398
154.875	-59.2598
155	-59.8891
155.125	-60.5221
155.25	-61.151
155.375	-61.7643
155.5	-62.3468
155.625	-62.8797
155.75	-63.3408
155.875	-63.7074
156	-63.96
156.125	-64.086
156.25	-64.0835
156.375	-63.9618
156.5	-63.7385
156.625	-63.4357
156.75	-63.0761
156.875	-62.6799
157	-62.2634
157.125	-61.8393
157.25	-61.4167
157.375	-61.0018
157.5	-60.5988
157.625	-60.2101
157.75	-59.8373
157.875	-59.481
158	-59.1413
158.125	-58.8181
158.25	-58.5109
158.375	-58.2192
158.5	-57.9423
158.625	-57.6795
158.75	-57.4302
158.875	-57.1937
159	-56.9693
159.125	-56.7564
159.25	-56.5545
159.375	-56.3629
159.5	-56.1811
159.625	-56.0086
159.75	-55.845
159.875	-55.6899
160	-55.5427
160.125	-55.4032
160.25	-55.271
160.375	-55.1457
160.5	-55.027
160.625	-54.9147
160.75	-54.8084
160.875	-54.7079
161	-54.6131
161.125	-54.5235
161.25	-54.4391
161.375	-54.3596
161.5	-54.2849
161.625	-54.2147
161.75	-54.149
161.875	-54.0874
162	-54.03
162.125	-53.9765
162.25	-53.9268
162.375	-53.8809
162.5	-53.8385
162.625	-53.7995
162.75	-53.7639
162.875	-53.7316
163	-53.7024
163.125	-53.6763
163.25	-53.6531
163.375	-53.6328
163.5	-53.6153
163.625	-53.6006
163.75	-53.5885
163.875	-53.579
164	-53.572
164.125	-53.5674
164.25	-53.5652
164.375	-53.5654
164.5	-53.5678
164.625	-53.5724
164.75	-53.5792
164.875	-53.5881
165	-53.5991
165.125	-53.612
165.25	-53.627
165.375	-53.6438
165.5	-53.6625
165.625	-53.6831
165.75	-53.7054
165.875	-53.7295
166	-53.7553
166.125	-53.7827
166.25	-53.8118
166.375	-53.8425
166.5	-53.8748
166.625	-53.9085
166.75	-53.9438
166.875	-53.9806
167	-54.0187
167.125	-54.0583
167.25	-54.0992
167.375	-54.1415
167.5	-54.185
167.625	-54.2299
167.75	-54.276
167.875	-54.3232
168	-54.3717
168.125	-54.4214
168.25	-54.4721
168.375	-54.524
168.5	-54.5769
168.625	-54.6308
168.75	-54.6858
168.875	-54.7418
169	-54.7987
169.125	-54.8565
169.25	-54.9153
169.375	-54.9749
169.5	-55.0354
169.625	-55.0966
169.75	-55.1587
169.875	-55.2215
170	-55.2851
170.125	-55.3494
170.25	-55.4143
170.375	-55.4799
170.5	-55.5461
170.625	-55.6129
170.75	-55.6802
170.875	-55.7481
171	-55.8165
171.125	-55.8853
171.25	-55.9546
171.375	-56.0243
171.5	-56.0944
171.625	-56.1648
171.75	-56.2356
171.875	-56.3066
172	-56.378
172.125	-56.4495
172.25	-56.5212
172.375	-56.5931
172.5	-56.6652
172.625	-56.7373
172.75	-56.8095
172.875	-56.8818
173	-56.9541
173.125	-57.0263
173.25	-57.0985
173.375	-57.1706
173.5	-57.2426
173.625	-57.3145
173.75	-57.3862
173.875	-57.4577
174	-57.5289
174.125	-57.5999
174.25	-57.6706
174.375	-57.741
174.5	-57.811
174.625	-57.8806
174.75	-57.9499
174.875	-58.0187
175	-58.087
175.125	-58.1548
175.25	-58.2222
175.375	-58.289
175.5	-58.3552
175.625	-58.4209
175.75	-58.4859
175.875	-58.5504
176	-58.6141
176.125	-58.6772
176.25	-58.7397
176.375	-58.8014
176.5	-58.8624
176.625	-58.9227
176.75	-58.9822
176.875	-59.0409
177	-59.0989
177.125	-59.1561
177.25	-59.2125
177.375	-59.2681
177.5	-59.3229
177.625	-59.3769
177.75	-59.43
177.875	-59.4823
178	-59.5338
178.125	-59.5844
178.25	-59.6342
178.375	-59.6832
178.5	-59.7313
178.625	-59.7786
178.75	-59.8251
178.875	-59.8707
179	-59.9155
179.125	-59.9595
179.25	-60.0027
179.375	-60.045
179.5	-60.0866
179.625	-60.1274
179.75	-60.1673
179.875	-60.2065
180	-60.245
180.125	-60.2826
180.25	-60.3196
180.375	-60.3558
180.5	-60.3912
180.625	-60.426
180.75	-60.46
180.875	-60.4934
181	-60.5261
181.125	-60.558
181.25	-60.5894
181.375	-60.6201
181.5	-60.6501
181.625	-60.6796
181.75	-60.7084
181.875	-60.7366
182	-60.7642
182.125	-60.7912
182.25	-60.8177
182.375	-60.8436
182.5	-60.8689
182.625	-60.8937
182.75	-60.918
182.875	-60.9417
183	-60.9649
183.125	-60.9876
183.25	-61.0098
183.375	-61.0315
183.5	-61.0528
183.625	-61.0735
183.75	-61.0937
183.875	-61.1135
184	-61.1328
184.125	-61.1517
184.25	-61.1701
184.375	-61.188
184.5	-61.2055
184.625	-61.2225
184.75	-61.2391
184.875	-61.2552
185	-61.2709
185.125	-61.2862
185.25	-61.301
185.375	-61.3154
185.5	-61.3293
185.625	-61.3428
185.75	-61.3559
185.875	-61.3686
186	-61.3808
186.125	-61.3925
186.25	-61.4039
186.375	-61.4148
186.5	-61.4253
186.625	-61.4353
186.75	-61.445
186.875	-61.4542
187	-61.4629
187.125	-61.4713
187.25	-61.4792
187.375	-61.4866
187.5	-61.4937
187.625	-61.5003
187.75	-61.5065
187.875	-61.5123
188	-61.5177
188.125	-61.5226
188.25	-61.5272
188.375	-61.5313
188.5	-61.535
188.625	-61.5383
188.75	-61.5412
188.875	-61.5438
189	-61.5459
189.125	-61.5476
189.25	-61.549
189.375	-61.55
189.5	-61.5506
189.625	-61.5509
189.75	-61.5509
189.875	-61.5504
190	-61.5497
190.125	-61.5486
190.25	-61.5472
190.375	-61.5455
190.5	-61.5436
190.625	-61.5413
190.75	-61.5388
190.875	-61.536
191	-61.5329
191.125	-61.5296
191.25	-61.5261
191.375	-61.5224
191.5	-61.5185
191.625	-61.5144
191.75	-61.5101
191.875	-61.5057
192	-61.5012
192.125	-61.4965
192.25	-61.4917
192.375	-61.4868
192.5	-61.4819
192.625	-61.4769
192.75	-61.4718
192.875	-61.4667
193	-61.4616
193.125	-61.4566
193.25	-61.4515
193.375	-61.4465
193.5	-61.4415
193.625	-61.4366
193.75	-61.4318
193.875	-61.4272
194	-61.4226
194.125	-61.4182
194.25	-61.414
194.375	-61.4099
194.5	-61.406
194.625	-61.4024
194.75	-61.399
194.875	-61.3958
195	-61.3929
195.125	-61.3903
195.25	-61.388
195.375	-61.3861
195.5	-61.3844
195.625	-61.3831
195.75	-61.3822
195.875	-61.3817
196	-61.3816
196.125	-61.3819
196.25	-61.3826
196.375	-61.3838
196.5	-61.3855
196.625	-61.3876
196.75	-61.3903
196.875	-61.3935
197	-61.3972
197.125	-61.4014
197.25	-61.4062
197.375	-61.4116
197.5	-61.4176
197.625	-61.4242
197.75	-61.4314
197.875	-61.4393
198	-61.4478
198.125	-61.4569
198.25	-61.4668
198.375	-61.4773
198.5	-61.4885
198.625	-61.5005
198.75	-61.5131
198.875	-61.5265
199	-61.5407
199.125	-61.5556
199.25	-61.5714
199.375	-61.5879
199.5	-61.6052
199.625	-61.6233
199.75	-61.6422
199.875	-61.662
200	-61.6826
200.125	-61.7041
200.25	-61.7264
200.375	-61.7496
200.5	-61.7737
200.625	-61.7987
200.75	-61.8246
200.875	-61.8514
201	-61.8791
201.125	-61.9077
201.25	-61.9373
201.375	-61.9678
201.5	-61.9993
201.625	-62.0317
201.75	-62.0651
201.875	-62.0994
202	-62.1347
202.125	-62.171
202.25	-62.2083
202.375	-62.2466
202.5	-62.2858
202.625	-62.3261
202.75	-62.3673
202.875	-62.4096
203	-62.4528
203.125	-62.497
203.25	-62.5422
203.375	-62.5884
203.5	-62.6356
203.625	-62.6838
203.75	-62.733
203.875	-62.7831
204	-62.8343
204.125	-62.8863
204.25	-62.9394
204.375	-62.9933
204.5	-63.0482
204.625	-63.104
204.75	-63.1607
204.875	-63.2183
205	-63.2767
205.125	-63.336
205.25	-63.3961
205.375	-63.457
205.5	-63.5186
205.625	-63.581
205.75	-63.6441
205.875	-63.7078
206	-63.7721
206.125	-63.837
206.25	-63.9024
206.375	-63.9684
206.5	-64.0347
206.625	-64.1014
206.75	-64.1684
206.875	-64.2356
207	-64.303
207.125	-64.3705
207.25	-64.438
207.375	-64.5054
207.5	-64.5727
207.625	-64.6397
207.75	-64.7063
207.875	-64.7725
208	-64.8381
208.125	-64.903
208.25	-64.967
208.375	-65.0302
208.5	-65.0923
208.625	-65.1531
208.75	-65.2127
208.875	-65.2707
209	-65.3271
209.125	-65.3817
209.25	-65.4344
209.375	-65.4849
209.5	-65.5332
209.625	-65.5791
209.75	-65.6224
209.875	-65.663
210	-65.7008
210.125	-65.7354
210.25	-65.7669
210.375	-65.7951
210.5	-65.8199
210.625	-65.8411
210.75	-65.8585
210.875	-65.8722
211	-65.882
211.125	-65.8878
211.25	-65.8896
211.375	-65.8872
211.5	-65.8807
211.625	-65.8701
211.75	-65.8552
211.875	-65.8361
212	-65.8129
212.125	-65.7855
212.25	-65.754
212.375	-65.7185
212.5	-65.679
212.625	-65.6356
212.75	-65.5884
212.875	-65.5376
213	-65.4832
213.125	-65.4254
213.25	-65.3642
213.375	-65.2999
213.5	-65.2326
213.625	-65.1625
213.75	-65.0896
213.875	-65.0142
214	-64.9364
214.125	-64.8564
214.25	-64.7743
214.375	-64.6902
214.5	-64.6044
214.625	-64.517
214.75	-64.4282
214.875	-64.338
215	-64.2466
215.125	-64.1542
215.25	-64.0609
215.375	-63.9667
215.5	-63.872
215.625	-63.7766
215.75	-63.6808
215.875	-63.5847
216	-63.4884
216.125	-63.3919
216.25	-63.2954
216.375	-63.1989
216.5	-63.1026
216.625	-63.0064
216.75	-62.9105
216.875	-62.8149
217	-62.7198
217.125	-62.6251
217.25	-62.5309
217.375	-62.4373
217.5	-62.3442
217.625	-62.2519
217.75	-62.1602
217.875	-62.0693
218	-61.9791
218.125	-61.8898
218.25	-61.8013
218.375	-61.7136
218.5	-61.6269
218.625	-61.541
218.75	-61.4561
218.875	-61.3722
219	-61.2892
219.125	-61.2072
219.25	-61.1262
219.375	-61.0462
219.5	-60.9673
219.625	-60.8894
219.75	-60.8126
219.875	-60.7368
220	-60.6621
220.125	-60.5885
220.25	-60.5159
220.375	-60.4445
220.5	-60.3741
220.625	-60.3049
220.75	-60.2367
220.875	-60.1697
221	-60.1037
221.125	-60.0389
221.25	-59.9751
221.375	-59.9125
221.5	-59.851
221.625	-59.7906
221.75	-59.7313
221.875	-59.6731
222	-59.6161
222.125	-59.5601
222.25	-59.5053
222.375	-59.4516
222.5	-59.3989
222.625	-59.3474
222.75	-59.297
222.875	-59.2477
223	-59.1995
223.125	-59.1524
223.25	-59.1063
223.375	-59.0614
223.5	-59.0176
223.625	-58.9748
223.75	-58.9332
223.875	-58.8926
224	-58.8532
224.125	-58.8148
224.25	-58.7775
224.375	-58.7412
224.5	-58.7061
224.625	-58.672
224.75	-58.639
224.875	-58.6071
225	-58.5762
225.125	-58.5464
225.25	-58.5177
225.375	-58.49
225.5	-58.4634
225.625	-58.4379
225.75	-58.4134
225.875	-58.39
226	-58.3677
226.125	-58.3464
226.25	-58.3262
226.375	-58.307
226.5	-58.2889
226.625	-58.2718
226.75	-58.2558
226.875	-58.2408
227	-58.2269
227.125	-58.2141
227.25	-58.2023
227.375	-58.1916
227.5	-58.1819
227.625	-58.1733
227.75	-58.1657
227.875	-58.1592
228	-58.1537
228.125	-58.1493
228.25	-58.146
228.375	-58.1437
228.5	-58.1425
228.625	-58.1423
228.75	-58.1432
228.875	-58.1452
229	-58.1482
229.125	-58.1523
229.25	-58.1575
229.375	-58.1638
229.5	-58.1711
229.625	-58.1795
229.75	-58.189
229.875	-58.1996
230	-58.2112
230.125	-58.224
230.25	-58.2378
230.375	-58.2528
230.5	-58.2688
230.625	-58.286
230.75	-58.3042
230.875	-58.3236
231	-58.3441
231.125	-58.3657
231.25	-58.3884
231.375	-58.4123
231.5	-58.4373
231.625	-58.4634
231.75	-58.4907
231.875	-58.5191
232	-58.5487
232.125	-58.5794
232.25	-58.6114
232.375	-58.6444
232.5	-58.6787
232.625	-58.7142
232.75	-58.7508
232.875	-58.7886
233	-58.8277
233.125	-58.868
233.25	-58.9094
233.375	-58.9521
233.5	-58.9961
233.625	-59.0413
233.75	-59.0877
233.875	-59.1354
234	-59.1843
234.125	-59.2346
234.25	-59.2861
234.375	-59.3389
234.5	-59.3929
234.625	-59.4483
234.75	-59.5051
234.875	-59.5631
235	-59.6225
235.125	-59.6832
235.25	-59.7452
235.375	-59.8086
235.5	-59.8734
235.625	-59.9395
235.75	-60.007
235.875	-60.0759
236	-60.1463
236.125	-60.218
236.25	-60.2911
236.375	-60.3656
236.5	-60.4416
236.625	-60.519
236.75	-60.5978
236.875	-60.6781
237	-60.7598
237.125	-60.8429
237.25	-60.9275
237.375	-61.0136
237.5	-61.1011
237.625	-61.1901
237.75	-61.2805
237.875	-61.3724
238	-61.4657
238.125	-61.5604
238.25	-61.6566
238.375	-61.7541
238.5	-61.8531
238.625	-61.9535
238.75	-62.0552
238.875	-62.1583
239	-62.2627
239.125	-62.3684
239.25	-62.4753
239.375	-62.5835
239.5	-62.6928
239.625	-62.8033
239.75	-62.9148
239.875	-63.0273
240	-63.1408
240.125	-63.2551
240.25	-63.3702
240.375	-63.486
240.5	-63.6023
240.625	-63.7192
240.75	-63.8364
240.875	-63.9537
241	-64.0712
241.125	-64.1886
241.25	-64.3057
241.375	-64.4223
241.5	-64.5383
241.625	-64.6534
241.75	-64.7675
241.875	-64.8802
242	-64.9913
242.125	-65.1005
242.25	-65.2076
242.375	-65.3122
242.5	-65.414
242.625	-65.5127
242.75	-65.608
242.875	-65.6996
243	-65.7869
243.125	-65.8699
243.25	-65.948
243.375	-66.0209
243.5	-66.0884
243.625	-66.15
243.75	-66.2055
243.875	-66.2546
244	-66.2971
244.125	-66.3327
244.25	-66.3611
244.375	-66.3824
244.5	-66.3962
244.625	-66.4026
244.75	-66.4015
244.875	-66.393
245	-66.377
245.125	-66.3536
245.25	-66.3231
245.375	-66.2855
245.5	-66.2411
245.625	-66.1901
245.75	-66.1327
245.875	-66.0693
246	-66.0002
246.125	-65.9257
246.25	-65.8461
246.375	-65.7617
246.5	-65.673
246.625	-65.5803
246.75	-65.4838
246.875	-65.384
247	-65.2812
247.125	-65.1758
247.25	-65.0679
247.375	-64.9579
247.5	-64.8462
247.625	-64.7329
247.75	-64.6183
247.875	-64.5028
248	-64.3864
248.125	-64.2694
248.25	-64.152
248.375	-64.0344
248.5	-63.9167
248.625	-63.7992
248.75	-63.6819
248.875	-63.565
249	-63.4486
249.125	-63.3328
249.25	-63.2177
249.375	-63.1034
249.5	-62.99
249.625	-62.8775
249.75	-62.7661
249.875	-62.6558
250	-62.5466
250.125	-62.4385
250.25	-62.3318
250.375	-62.2262
250.5	-62.122
250.625	-62.0191
250.75	-61.9176
250.875	-61.8174
251	-61.7187
251.125	-61.6213
251.25	-61.5254
251.375	-61.4309
251.5	-61.3378
251.625	-61.2462
251.75	-61.1561
251.875	-61.0674
252	-60.9801
252.125	-60.8944
252.25	-60.81
252.375	-60.7272
252.5	-60.6457
252.625	-60.5658
252.75	-60.4873
252.875	-60.4102
253	-60.3345
253.125	-60.2603
253.25	-60.1875
253.375	-60.1161
253.5	-60.0462
253.625	-59.9776
253.75	-59.9105
253.875	-59.8447
254	-59.7803
254.125	-59.7172
254.25	-59.6556
254.375	-59.5953
254.5	-59.5363
254.625	-59.4787
254.75	-59.4224
254.875	-59.3674
255	-59.3138
255.125	-59.2614
255.25	-59.2104
255.375	-59.1606
255.5	-59.1121
255.625	-59.065
255.75	-59.019
255.875	-58.9744
256	-58.931
256.125	-58.8888
256.25	-58.8479
256.375	-58.8082
256.5	-58.7698
256.625	-58.7325
256.75	-58.6965
256.875	-58.6617
257	-58.6281
257.125	-58.5957
257.25	-58.5645
257.375	-58.5345
257.5	-58.5057
257.625	-58.478
257.75	-58.4515
257.875	-58.4262
258	-58.4021
258.125	-58.3791
258.25	-58.3572
258.375	-58.3366
258.5	-58.317
258.625	-58.2987
258.75	-58.2814
258.875	-58.2653
259	-58.2503
259.125	-58.2365
259.25	-58.2238
259.375	-58.2122
259.5	-58.2018
259.625	-58.1925
259.75	-58.1843
259.875	-58.1772
260	-58.1713
260.125	-58.1664
260.25	-58.1627
260.375	-58.1601
260.5	-58.1587
260.625	-58.1583
260.75	-58.1591
260.875	-58.161
261	-58.1639
261.125	-58.1681
261.25	-58.1733
261.375	-58.1796
261.5	-58.1871
261.625	-58.1957
261.75	-58.2054
261.875	-58.2162
262	-58.2282
262.125	-58.2413
262.25	-58.2555
262.375	-58.2709
262.5	-58.2873
262.625	-58.305
262.75	-58.3237
262.875	-58.3436
263	-58.3647
263.125	-58.3869
263.25	-58.4102
263.375	-58.4347
263.5	-58.4604
263.625	-58.4872
263.75	-58.5152
263.875	-58.5444
264	-58.5747
264.125	-58.6062
264.25	-58.639
264.375	-58.6729
264.5	-58.708
264.625	-58.7443
264.75	-58.7818
264.875	-58.8206
265	-58.8606
265.125	-58.9018
265.25	-58.9442
265.375	-58.9879
265.5	-59.0328
265.625	-59.079
265.75	-59.1264
265.875	-59.1752
266	-59.2252
266.125	-59.2764
266.25	-59.329
266.375	-59.3829
266.5	-59.4381
266.625	-59.4946
266.75	-59.5525
266.875	-59.6117
267	-59.6722
267.125	-59.7341
267.25	-59.7973
267.375	-59.862
267.5	-59.928
267.625	-59.9953
267.75	-60.0641
267.875	-60.1343
268	-60.2059
268.125	-60.279
268.25	-60.3534
268.375	-60.4293
268.5	-60.5067
268.625	-60.5855
268.75	-60.6658
268.875	-60.7475
269	-60.8307
269.125	-60.9154
269.25	-61.0016
269.375	-61.0892
269.5	-61.1784
269.625	-61.269
269.75	-61.3612
269.875	-61.4548
270	-61.5499
270.125	-61.6466
270.25	-61.7447
270.375	-61.8442
270.5	-61.9453
270.625	-62.0478
270.75	-62.1518
270.875	-62.2571
271	-62.3639
271.125	-62.4721
271.25	-62.5816
271.375	-62.6925
271.5	-62.8046
271.625	-62.918
271.75	-63.0326
271.875	-63.1484
272	-63.2652
272.125	-63.3831
272.25	-63.5019
272.375	-63.6216
272.5	-63.742
272.625	-63.8632
272.75	-63.9849
272.875	-64.1071
273	-64.2296
273.125	-64.3523
273.25	-64.4749
273.375	-64.5975
273.5	-64.7196
273.625	-64.8413
273.75	-64.9622
273.875	-65.082
274	-65.2007
274.125	-65.3178
274.25	-65.4332
274.375	-65.5464
274.5	-65.6573
274.625	-65.7654
274.75	-65.8705
274.875	-65.9721
275	-66.07
275.125	-66.1637
275.25	-66.253
275.375	-66.3373
275.5	-66.4164
275.625	-66.4899
275.75	-66.5574
275.875	-66.6187
276	-66.6733
276.125	-66.7211
276.25	-66.7617
276.375	-66.795
276.5	-66.8208
276.625	-66.8388
276.75	-66.8491
276.875	-66.8516
277	-66.8463
277.125	-66.8331
277.25	-66.8123
277.375	-66.784
277.5	-66.7482
277.625	-66.7053
277.75	-66.6555
277.875	-66.5991
278	-66.5363
278.125	-66.4676
278.25	-66.3931
278.375	-66.3135
278.5	-66.2288
278.625	-66.1397
278.75	-66.0463
278.875	-65.9491
279	-65.8485
279.125	-65.7448
279.25	-65.6383
279.375	-65.5294
279.5	-65.4183
279.625	-65.3055
279.75	-65.191
279.875	-65.0754
280	-64.9587
280.125	-64.8412
280.25	-64.7231
280.375	-64.6047
280.5	-64.4861
280.625	-64.3675
280.75	-64.2491
280.875	-64.1309
281	-64.0132
281.125	-63.8961
281.25	-63.7796
281.375	-63.6639
281.5	-63.549
281.625	-63.4351
281.75	-63.3223
281.875	-63.2105
282	-63.0998
282.125	-62.9904
282.25	-62.8821
282.375	-62.7752
282.5	-62.6696
282.625	-62.5654
282.75	-62.4625
282.875	-62.361
283	-62.261
283.125	-62.1624
283.25	-62.0653
283.375	-61.9696
283.5	-61.8754
283.625	-61.7827
283.75	-61.6915
283.875	-61.6017
284	-61.5135
284.125	-61.4267
284.25	-61.3415
284.375	-61.2577
284.5	-61.1755
284.625	-61.0947
284.75	-61.0154
284.875	-60.9375
285	-60.8612
285.125	-60.7863
285.25	-60.7128
285.375	-60.6409
285.5	-60.5703
285.625	-60.5012
285.75	-60.4335
285.875	-60.3672
286	-60.3023
286.125	-60.2389
286.25	-60.1768
286.375	-60.1161
286.5	-60.0567
286.625	-59.9988
286.75	-59.9422
286.875	-59.8869
287	-59.833
287.125	-59.7804
287.25	-59.7291
287.375	-59.6791
287.5	-59.6305
287.625	-59.5831
287.75	-59.5371
287.875	-59.4923
288	-59.4488
288.125	-59.4065
288.25	-59.3655
288.375	-59.3258
288.5	-59.2873
288.625	-59.25
288.75	-59.214
288.875	-59.1792
289	-59.1456
289.125	-59.1132
289.25	-59.0821
289.375	-59.0521
289.5	-59.0233
289.625	-58.9957
289.75	-58.9693
289.875	-58.9441
290	-58.9201
290.125	-58.8972
290.25	-58.8755
290.375	-58.855
290.5	-58.8356
290.625	-58.8173
290.75	-58.8003
290.875	-58.7843
291	-58.7695
291.125	-58.7559
291.25	-58.7434
291.375	-58.732
291.5	-58.7218
291.625	-58.7127
291.75	-58.7047
291.875	-58.6978
292	-58.6921
292.125	-58.6875
292.25	-58.684
292.375	-58.6817
292.5	-58.6804
292.625	-58.6803
292.75	-58.6813
292.875	-58.6834
293	-58.6867
293.125	-58.691
293.25	-58.6965
293.375	-58.7031
293.5	-58.7108
293.625	-58.7197
293.75	-58.7297
293.875	-58.7408
294	-58.753
294.125	-58.7663
294.25	-58.7808
294.375	-58.7964
294.5	-58.8131
294.625	-58.831
294.75	-58.85
294.875	-58.8702
295	-58.8915
295.125	-58.9139
295.25	-58.9375
295.375	-58.9622
295.5	-58.9881
295.625	-59.0152
295.75	-59.0434
295.875	-59.0728
296	-59.1034
296.125	-59.1351
296.25	-59.1681
296.375	-59.2022
296.5	-59.2375
296.625	-59.274
296.75	-59.3117
296.875	-59.3506
297	-59.3908
297.125	-59.4321
297.25	-59.4747
297.375	-59.5185
297.5	-59.5636
297.625	-59.6099
297.75	-59.6575
297.875	-59.7063
298	-59.7564
298.125	-59.8077
298.25	-59.8604
298.375	-59.9143
298.5	-59.9695
298.625	-60.0261
298.75	-60.0839
298.875	-60.1431
299	-60.2036
299.125	-60.2654
299.25	-60.3286
299.375	-60.3932
299.5	-60.4591
299.625	-60.5263
299.75	-60.5949
299.875	-60.665
300	-60.7364
300.125	-60.8092
300.25	-60.8834
300.375	-60.959
300.5	-61.036
300.625	-61.1145
300.75	-61.1944
300.875	-61.2757
301	-61.3585
301.125	-61.4427
301.25	-61.5283
301.375	-61.6154
301.5	-61.7039
301.625	-61.7939
301.75	-61.8853
301.875	-61.9782
302	-62.0725
302.125	-62.1683
302.25	-62.2655
302.375	-62.3641
302.5	-62.4641
302.625	-62.5655
302.75	-62.6682
302.875	-62.7723
303	-62.8778
303.125	-62.9845
303.25	-63.0926
303.375	-63.2018
303.5	-63.3123
303.625	-63.4239
303.75	-63.5367
303.875	-63.6505
304	-63.7652
304.125	-63.8809
304.25	-63.9974
304.375	-64.1147
304.5	-64.2327
304.625	-64.3512
304.75	-64.4701
304.875	-64.5894
305	-64.7088
305.125	-64.8284
305.25	-64.9477
305.375	-65.0668
305.5	-65.1854
305.625	-65.3034
305.75	-65.4204
305.875	-65.5363
306	-65.6509
306.125	-65.7639
306.25	-65.8749
306.375	-65.9838
306.5	-66.0901
306.625	-66.1937
306.75	-66.2942
306.875	-66.3912
307	-66.4845
307.125	-66.5736
307.25	-66.6582
307.375	-66.738
307.5	-66.8127
307.625	-66.8819
307.75	-66.9452
307.875	-67.0025
308	-67.0534
308.125	-67.0977
308.25	-67.1351
308.375	-67.1654
308.5	-67.1885
308.625	-67.2044
308.75	-67.2128
308.875	-67.2138
309	-67.2073
309.125	-67.1935
309.25	-67.1724
309.375	-67.1441
309.5	-67.1089
309.625	-67.0668
309.75	-67.0182
309.875	-66.9634
310	-66.9025
310.125	-66.836
310.25	-66.764
310.375	-66.6871
310.5	-66.6054
310.625	-66.5194
310.75	-66.4294
310.875	-66.3357
311	-66.2387
311.125	-66.1387
311.25	-66.0361
311.375	-65.931
311.5	-65.8239
311.625	-65.7149
311.75	-65.6045
311.875	-65.4927
312	-65.38
312.125	-65.2664
312.25	-65.1522
312.375	-65.0376
312.5	-64.9228
312.625	-64.8079
312.75	-64.6931
312.875	-64.5786
313	-64.4644
313.125	-64.3507
313.25	-64.2376
313.375	-64.1252
313.5	-64.0135
313.625	-63.9028
313.75	-63.793
313.875	-63.6842
314	-63.5764
314.125	-63.4698
314.25	-63.3644
314.375	-63.2602
314.5	-63.1572
314.625	-63.0555
314.75	-62.9551
314.875	-62.8561
315	-62.7584
315.125	-62.6621
315.25	-62.5672
315.375	-62.4738
315.5	-62.3817
315.625	-62.291
315.75	-62.2018
315.875	-62.1141
316	-62.0278
316.125	-61.9429
316.25	-61.8594
316.375	-61.7775
316.5	-61.6969
316.625	-61.6178
316.75	-61.5402
316.875	-61.4639
317	-61.3891
317.125	-61.3158
317.25	-61.2438
317.375	-61.1733
317.5	-61.1041
317.625	-61.0364
317.75	-60.9701
317.875	-60.9051
318	-60.8415
318.125	-60.7793
318.25	-60.7185
318.375	-60.659
318.5	-60.6008
318.625	-60.544
318.75	-60.4886
318.875	-60.4344
319	-60.3816
319.125	-60.33
319.25	-60.2798
319.375	-60.2309
319.5	-60.1832
319.625	-60.1369
319.75	-60.0917
319.875	-60.0479
320	-60.0053
320.125	-59.964
320.25	-59.9239
320.375	-59.885
320.5	-59.8474
320.625	-59.811
320.75	-59.7758
320.875	-59.7418
321	-59.709
321.125	-59.6774
321.25	-59.647
321.375	-59.6178
321.5	-59.5898
321.625	-59.5629
321.75	-59.5372
321.875	-59.5127
322	-59.4894
322.125	-59.4672
322.25	-59.4461
322.375	-59.4263
322.5	-59.4075
322.625	-59.3899
322.75	-59.3735
322.875	-59.3582
323	-59.344
323.125	-59.3309
323.25	-59.319
323.375	-59.3082
323.5	-59.2985
323.625	-59.29
323.75	-59.2825
323.875	-59.2762
324	-59.271
324.125	-59.267
324.25	-59.264
324.375	-59.2621
324.5	-59.2614
324.625	-59.2618
324.75	-59.2632
324.875	-59.2658
325	-59.2695
325.125	-59.2744
325.25	-59.2803
325.375	-59.2873
325.5	-59.2955
325.625	-59.3047
325.75	-59.3151
325.875	-59.3266
326	-59.3392
326.125	-59.353
326.25	-59.3678
326.375	-59.3838
326.5	-59.4009
326.625	-59.4191
326.75	-59.4385
326.875	-59.4589
327	-59.4806
327.125	-59.5033
327.25	-59.5272
327.375	-59.5523
327.5	-59.5784
327.625	-59.6058
327.75	-59.6343
327.875	-59.6639
328	-59.6947
328.125	-59.7267
328.25	-59.7599
328.375	-59.7942
328.5	-59.8297
328.625	-59.8664
328.75	-59.9043
328.875	-59.9434
329	-59.9837
329.125	-60.0252
329.25	-60.0679
329.375	-60.1118
329.5	-60.157
329.625	-60.2034
329.75	-60.251
329.875	-60.2999
330	-60.35
330.125	-60.4014
330.25	-60.454
330.375	-60.5079
330.5	-60.5631
330.625	-60.6196
330.75	-60.6773
330.875	-60.7364
331	-60.7968
331.125	-60.8584
331.25	-60.9214
331.375	-60.9858
331.5	-61.0514
331.625	-61.1184
331.75	-61.1867
331.875	-61.2564
332	-61.3274
332.125	-61.3998
332.25	-61.4736
332.375	-61.5487
332.5	-61.6252
332.625	-61.7031
332.75	-61.7824
332.875	-61.863
333	-61.9451
333.125	-62.0285
333.25	-62.1133
333.375	-62.1995
333.5	-62.2871
333.625	-62.3761
333.75	-62.4664
333.875	-62.5581
334	-62.6512
334.125	-62.7457
334.25	-62.8414
334.375	-62.9385
334.5	-63.037
334.625	-63.1367
334.75	-63.2376
334.875	-63.3399
335	-63.4433
335.125	-63.5479
335.25	-63.6537
335.375	-63.7606
335.5	-63.8685
335.625	-63.9774
335.75	-64.0873
335.875	-64.1981
336	-64.3097
336.125	-64.4221
336.25	-64.5351
336.375	-64.6486
336.5	-64.7626
336.625	-64.877
336.75	-64.9916
336.875	-65.1063
337	-65.221
337.125	-65.3355
337.25	-65.4496
337.375	-65.5632
337.5	-65.6761
337.625	-65.788
337.75	-65.8988
337.875	-66.0083
338	-66.1161
338.125	-66.222
338.25	-66.3259
338.375	-66.4273
338.5	-66.5261
338.625	-66.6218
338.75	-66.7143
338.875	-66.8032
339	-66.8882
339.125	-66.9689
339.25	-67.0451
339.375	-67.1165
339.5	-67.1828
339.625	-67.2436
339.75	-67.2987
339.875	-67.3479
340	-67.3909
340.125	-67.4275
340.25	-67.4576
340.375	-67.481
340.5	-67.4975
340.625	-67.5072
340.75	-67.5099
340.875	-67.5056
341	-67.4945
341.125	-67.4765
341.25	-67.4518
341.375	-67.4205
341.5	-67.3828
341.625	-67.3389
341.75	-67.289
341.875	-67.2333
342	-67.1722
342.125	-67.1059
342.25	-67.0347
342.375	-66.9589
342.5	-66.8788
342.625	-66.7948
342.75	-66.7071
342.875	-66.6161
343	-66.522
343.125	-66.4252
343.25	-66.326
343.375	-66.2246
343.5	-66.1212
343.625	-66.0162
343.75	-65.9098
343.875	-65.8023
344	-65.6937
344.125	-65.5844
344.25	-65.4746
344.375	-65.3643
344.5	-65.2538
344.625	-65.1433
344.75	-65.0328
344.875	-64.9226
345	-64.8126
345.125	-64.7032
345.25	-64.5942
345.375	-64.4859
345.5	-64.3784
345.625	-64.2716
345.75	-64.1657
345.875	-64.0608
346	-63.9568
346.125	-63.8539
346.25	-63.7521
346.375	-63.6514
346.5	-63.552
346.625	-63.4537
346.75	-63.3566
346.875	-63.2609
347	-63.1664
347.125	-63.0732
347.25	-62.9813
347.375	-62.8908
347.5	-62.8016
347.625	-62.7138
347.75	-62.6274
347.875	-62.5423
348	-62.4586
348.125	-62.3763
348.25	-62.2954
348.375	-62.2158
348.5	-62.1377
348.625	-62.0609
348.75	-61.9855
348.875	-61.9115
349	-61.8389
349.125	-61.7677
349.25	-61.6978
349.375	-61.6292
349.5	-61.5621
349.625	-61.4963
349.75	-61.4318
349.875	-61.3687
350	-61.3069
350.125	-61.2465
350.25	-61.1874
350.375	-61.1295
350.5	-61.073
350.625	-61.0178
350.75	-60.9639
350.875	-60.9113
351	-60.86
351.125	-60.8099
351.25	-60.7611
351.375	-60.7136
351.5	-60.6673
351.625	-60.6223
351.75	-60.5785
351.875	-60.536
352	-60.4947
352.125	-60.4546
352.25	-60.4157
352.375	-60.378
352.5	-60.3415
352.625	-60.3063
352.75	-60.2722
352.875	-60.2393
353	-60.2076
353.125	-60.1771
353.25	-60.1477
353.375	-60.1195
353.5	-60.0925
353.625	-60.0666
353.75	-60.0419
353.875	-60.0184
354	-59.996
354.125	-59.9747
354.25	-59.9545
354.375	-59.9355
354.5	-59.9177
354.625	-59.9009
354.75	-59.8853
354.875	-59.8708
355	-59.8574
355.125	-59.8452
355.25	-59.834
355.375	-59.824
355.5	-59.8151
355.625	-59.8073
355.75	-59.8006
355.875	-59.795
356	-59.7905
356.125	-59.7871
356.25	-59.7848
356.375	-59.7836
356.5	-59.7835
356.625	-59.7845
356.75	-59.7867
356.875	-59.7899
357	-59.7942
357.125	-59.7996
357.25	-59.8061
357.375	-59.8138
357.5	-59.8225
357.625	-59.8323
357.75	-59.8432
357.875	-59.8553
358	-59.8684
358.125	-59.8827
358.25	-59.898
358.375	-59.9145
358.5	-59.9321
358.625	-59.9508
358.75	-59.9706
358.875	-59.9916
359	-60.0137
359.125	-60.0369
359.25	-60.0612
359.375	-60.0867
359.5	-60.1133
359.625	-60.141
359.75	-60.1699
359.875	-60.1999
360	-60.2311
360.125	-60.2635
360.25	-60.297
360.375	-60.3316
360.5	-60.3675
360.625	-60.4045
360.75	-60.4427
360.875	-60.482
361	-60.5226
361.125	-60.5644
361.25	-60.6073
361.375	-60.6515
361.5	-60.6969
361.625	-60.7435
361.75	-60.7913
361.875	-60.8403
362	-60.8906
362.125	-60.9421
362.25	-60.9949
362.375	-61.0489
362.5	-61.1041
362.625	-61.1607
362.75	-61.2185
362.875	-61.2776
363	-61.3379
363.125	-61.3996
363.25	-61.4625
363.375	-61.5267
363.5	-61.5923
363.625	-61.6591
363.75	-61.7273
363.875	-61.7967
364	-61.8675
364.125	-61.9397
364.25	-62.0131
364.375	-62.0879
364.5	-62.164
364.625	-62.2414
364.75	-62.3202
364.875	-62.4003
365	-62.4818
365.125	-62.5646
365.25	-62.6487
365.375	-62.7341
365.5	-62.8209
365.625	-62.909
365.75	-62.9983
365.875	-63.089
366	-63.181
366.125	-63.2742
366.25	-63.3687
366.375	-63.4644
366.5	-63.5613
366.625	-63.6594
366.75	-63.7587
366.875	-63.8591
367	-63.9606
367.125	-64.0632
367.25	-64.1667
367.375	-64.2713
367.5	-64.3767
367.625	-64.483
367.75	-64.5901
367.875	-64.6979
368	-64.8063
368.125	-64.9153
368.25	-65.0247
368.375	-65.1345
368.5	-65.2445
368.625	-65.3547
368.75	-65.4649
368.875	-65.5749
369	-65.6847
369.125	-65.794
369.25	-65.9027
369.375	-66.0106
369.5	-66.1175
369.625	-66.2232
369.75	-66.3275
369.875	-66.4301
370	-66.5309
370.125	-66.6296
370.25	-66.7258
370.375	-66.8195
370.5	-66.9102
370.625	-66.9977
370.75	-67.0817
370.875	-67.1619
371	-67.2381
371.125	-67.31
371.25	-67.3772
371.375	-67.4395
371.5	-67.4968
371.625	-67.5486
371.75	-67.5948
371.875	-67.6352
372	-67.6696
372.125	-67.6978
372.25	-67.7197
372.375	-67.7352
372.5	-67.7443
372.625	-67.7469
372.75	-67.7429
372.875	-67.7325
373	-67.7156
373.125	-67.6925
373.25	-67.6631
373.375	-67.6277
373.5	-67.5864
373.625	-67.5394
373.75	-67.487
373.875	-67.4294
374	-67.3668
374.125	-67.2996
374.25	-67.2279
374.375	-67.1521
374.5	-67.0725
374.625	-66.9893
374.75	-66.9028
374.875	-66.8134
375	-66.7212
375.125	-66.6265
375.25	-66.5297
375.375	-66.431
375.5	-66.3305
375.625	-66.2286
375.75	-66.1254
375.875	-66.0212
376	-65.9161
376.125	-65.8103
376.25	-65.7041
376.375	-65.5976
376.5	-65.4908
376.625	-65.3841
376.75	-65.2774
376.875	-65.171
377	-65.0649
377.125	-64.9592
377.25	-64.854
377.375	-64.7495
377.5	-64.6456
377.625	-64.5426
377.75	-64.4403
377.875	-64.339
378	-64.2386
378.125	-64.1392
378.25	-64.0408
378.375	-63.9435
378.5	-63.8474
378.625	-63.7524
378.75	-63.6585
378.875	-63.5659
379	-63.4745
379.125	-63.3844
379.25	-63.2955
379.375	-63.2079
379.5	-63.1216
379.625	-63.0366
379.75	-62.9529
379.875	-62.8705
380	-62.7894
380.125	-62.7097
380.25	-62.6313
380.375	-62.5542
380.5	-62.4785
380.625	-62.404
380.75	-62.331
380.875	-62.2592
381	-62.1888
381.125	-62.1197
381.25	-62.052
381.375	-61.9855
381.5	-61.9204
381.625	-61.8566
381.75	-61.7941
381.875	-61.7329
382	-61.673
382.125	-61.6143
382.25	-61.557
382.375	-61.501
382.5	-61.4462
382.625	-61.3927
382.75	-61.3404
382.875	-61.2894
383	-61.2397
383.125	-61.1912
383.25	-61.1439
383.375	-61.0979
383.5	-61.0531
383.625	-61.0095
383.75	-60.9671
383.875	-60.9259
384	-60.886
384.125	-60.8472
384.25	-60.8096
384.375	-60.7732
384.5	-60.738
384.625	-60.704
384.75	-60.6711
384.875	-60.6395
385	-60.6089
385.125	-60.5795
385.25	-60.5513
385.375	-60.5243
385.5	-60.4983
385.625	-60.4735
385.75	-60.4499
385.875	-60.4274
386	-60.406
386.125	-60.3857
386.25	-60.3666
386.375	-60.3485
386.5	-60.3316
386.625	-60.3158
386.75	-60.3012
386.875	-60.2876
387	-60.2751
387.125	-60.2637
387.25	-60.2535
387.375	-60.2443
387.5	-60.2362
387.625	-60.2293
387.75	-60.2234
387.875	-60.2186
388	-60.2149
388.125	-60.2123
388.25	-60.2108
388.375	-60.2104
388.5	-60.2111
388.625	-60.2129
388.75	-60.2157
388.875	-60.2197
389	-60.2247
389.125	-60.2308
389.25	-60.2381
389.375	-60.2464
389.5	-60.2558
389.625	-60.2663
389.75	-60.2779
389.875	-60.2906
390	-60.3044
390.125	-60.3193
390.25	-60.3353
390.375	-60.3524
390.5	-60.3706
390.625	-60.3899
390.75	-60.4103
390.875	-60.4318
391	-60.4545
391.125	-60.4783
391.25	-60.5032
391.375	-60.5292
391.5	-60.5563
391.625	-60.5846
391.75	-60.614
391.875	-60.6446
392	-60.6763
392.125	-60.7091
392.25	-60.7431
392.375	-60.7783
392.5	-60.8146
392.625	-60.852
392.75	-60.8907
392.875	-60.9305
393	-60.9715
393.125	-61.0137
393.25	-61.0571
393.375	-61.1016
393.5	-61.1474
393.625	-61.1944
393.75	-61.2425
393.875	-61.2919
394	-61.3425
394.125	-61.3944
394.25	-61.4474
394.375	-61.5017
394.5	-61.5573
394.625	-61.614
394.75	-61.6721
394.875	-61.7314
395	-61.7919
395.125	-61.8538
395.25	-61.9168
395.375	-61.9812
395.5	-62.0468
395.625	-62.1138
395.75	-62.182
395.875	-62.2515
396	-62.3223
396.125	-62.3943
396.25	-62.4677
396.375	-62.5424
396.5	-62.6184
396.625	-62.6956
396.75	-62.7742
396.875	-62.854
397	-62.9351
397.125	-63.0176
397.25	-63.1012
397.375	-63.1862
397.5	-63.2724
397.625	-63.3599
397.75	-63.4486
397.875	-63.5385
398	-63.6297
398.125	-63.722
398.25	-63.8155
398.375	-63.9102
398.5	-64.0059
398.625	-64.1028
398.75	-64.2007
398.875	-64.2996
399	-64.3996
399.125	-64.5004
399.25	-64.6021
399.375	-64.7047
399.5	-64.808
399.625	-64.912
399.75	-65.0166
399.875	-65.1218
400	-65.2274
400.125	-65.3334
400.25	-65.4397
400.375	-65.5461
400.5	-65.6526
400.625	-65.759
400.75	-65.8651
400.875	-65.9709
401	-66.0762
401.125	-66.1807
401.25	-66.2844
401.375	-66.387
401.5	-66.4884
401.625	-66.5883
401.75	-66.6865
401.875	-66.7828
402	-66.877
402.125	-66.9688
402.25	-67.0579
402.375	-67.1442
402.5	-67.2273
402.625	-67.3069
402.75	-67.3829
402.875	-67.455
403	-67.5228
403.125	-67.5861
403.25	-67.6448
403.375	-67.6985
403.5	-67.747
403.625	-67.7901
403.75	-67.8277
403.875	-67.8596
404	-67.8855
404.125	-67.9055
404.25	-67.9194
404.375	-67.9272
404.5	-67.9288
404.625	-67.9242
404.75	-67.9135
404.875	-67.8967
405	-67.8739
405.125	-67.8452
405.25	-67.8107
405.375	-67.7707
405.5	-67.7253
405.625	-67.6747
405.75	-67.6191
405.875	-67.5588
406	-67.494
406.125	-67.4249
406.25	-67.3519
406.375	-67.2752
406.5	-67.195
406.625	-67.1116
406.75	-67.0253
406.875	-66.9364
407	-66.845
407.125	-66.7515
407.25	-66.656
407.375	-66.5589
407.5	-66.4602
407.625	-66.3603
407.75	-66.2593
407.875	-66.1574
408	-66.0548
408.125	-65.9517
408.25	-65.8481
408.375	-65.7444
408.5	-65.6405
408.625	-65.5366
408.75	-65.4329
408.875	-65.3295
409	-65.2264
409.125	-65.1237
409.25	-65.0216
409.375	-64.9201
409.5	-64.8193
409.625	-64.7193
409.75	-64.6201
409.875	-64.5217
410	-64.4243
410.125	-64.3278
410.25	-64.2324
410.375	-64.138
410.5	-64.0447
410.625	-63.9525
410.75	-63.8615
410.875	-63.7716
411	-63.6829
411.125	-63.5954
411.25	-63.5092
411.375	-63.4241
411.5	-63.3404
411.625	-63.2578
411.75	-63.1766
411.875	-63.0966
412	-63.0179
412.125	-62.9405
412.25	-62.8644
412.375	-62.7896
412.5	-62.716
412.625	-62.6438
412.75	-62.5728
412.875	-62.5032
413	-62.4348
413.125	-62.3677
413.25	-62.3019
413.375	-62.2374
413.5	-62.1742
413.625	-62.1122
413.75	-62.0516
413.875	-61.9921
414	-61.934
414.125	-61.8771
414.25	-61.8215
414.375	-61.7671
414.5	-61.7139
414.625	-61.662
414.75	-61.6114
414.875	-61.5619
415	-61.5137
415.125	-61.4667
415.25	-61.4209
415.375	-61.3763
415.5	-61.333
415.625	-61.2908
415.75	-61.2498
415.875	-61.21
416	-61.1714
416.125	-61.1339
416.25	-61.0976
416.375	-61.0625
416.5	-61.0286
416.625	-60.9958
416.75	-60.9641
416.875	-60.9336
417	-60.9043
417.125	-60.8761
417.25	-60.849
417.375	-60.823
417.5	-60.7982
417.625	-60.7745
417.75	-60.752
417.875	-60.7305
418	-60.7102
418.125	-60.6909
418.25	-60.6728
418.375	-60.6558
418.5	-60.6399
418.625	-60.6251
418.75	-60.6114
418.875	-60.5988
419	-60.5872
419.125	-60.5768
419.25	-60.5675
419.375	-60.5592
419.5	-60.5521
419.625	-60.546
419.75	-60.541
419.875	-60.5371
420	-60.5343
420.125	-60.5325
420.25	-60.5319
420.375	-60.5323
420.5	-60.5338
420.625	-60.5364
420.75	-60.5401
420.875	-60.5448
421	-60.5507
421.125	-60.5576
421.25	-60.5656
421.375	-60.5747
421.5	-60.5849
421.625	-60.5961
421.75	-60.6085
421.875	-60.6219
422	-60.6365
422.125	-60.6521
422.25	-60.6688
422.375	-60.6867
422.5	-60.7056
422.625	-60.7256
422.75	-60.7467
422.875	-60.769
423	-60.7923
423.125	-60.8168
423.25	-60.8424
423.375	-60.8691
423.5	-60.8969
423.625	-60.9258
423.75	-60.9559
423.875	-60.9871
424	-61.0195
424.125	-61.0529
424.25	-61.0876
424.375	-61.1234
424.5	-61.1603
424.625	-61.1984
424.75	-61.2376
424.875	-61.2781
425	-61.3197
425.125	-61.3624
425.25	-61.4064
425.375	-61.4515
425.5	-61.4978
425.625	-61.5454
425.75	-61.5941
425.875	-61.644
426	-61.6952
426.125	-61.7475
426.25	-61.8011
426.375	-61.8559
426.5	-61.9119
426.625	-61.9692
426.75	-62.0277
426.875	-62.0874
427	-62.1484
427.125	-62.2106
427.25	-62.2741
427.375	-62.3388
427.5	-62.4048
427.625	-62.4721
427.75	-62.5406
427.875	-62.6104
428	-62.6815
428.125	-62.7538
428.25	-62.8274
428.375	-62.9023
428.5	-62.9784
428.625	-63.0558
428.75	-63.1344
428.875	-63.2143
429	-63.2955
429.125	-63.3779
429.25	-63.4615
429.375	-63.5463
429.5	-63.6324
429.625	-63.7196
429.75	-63.808
429.875	-63.8976
430	-63.9884
430.125	-64.0802
430.25	-64.1732
430.375	-64.2672
430.5	-64.3622
430.625	-64.4583
430.75	-64.5553
430.875	-64.6532
431	-64.752
431.125	-64.8516
431.25	-64.952
431.375	-65.053
431.5	-65.1547
431.625	-65.257
431.75	-65.3597
431.875	-65.4628
432	-65.5663
432.125	-65.6699
432.25	-65.7735
432.375	-65.8772
432.5	-65.9807
432.625	-66.0839
432.75	-66.1866
432.875	-66.2887
433	-66.3901
433.125	-66.4906
433.25	-66.5899
433.375	-66.6879
433.5	-66.7844
433.625	-66.8791
433.75	-66.9719
433.875	-67.0626
434	-67.1508
434.125	-67.2364
434.25	-67.3191
434.375	-67.3987
434.5	-67.4748
434.625	-67.5473
434.75	-67.6159
434.875	-67.6804
435	-67.7405
435.125	-67.796
435.25	-67.8466
435.375	-67.8923
435.5	-67.9327
435.625	-67.9676
435.75	-67.9971
435.875	-68.0209
436	-68.0388
436.125	-68.0509
436.25	-68.0571
436.375	-68.0574
436.5	-68.0517
436.625	-68.0401
436.75	-68.0227
436.875	-67.9995
437	-67.9706
437.125	-67.9362
437.25	-67.8965
437.375	-67.8515
437.5	-67.8016
437.625	-67.7469
437.75	-67.6876
437.875	-67.624
438	-67.5563
438.125	-67.4848
438.25	-67.4096
438.375	-67.3311
438.5	-67.2495
438.625	-67.1651
438.75	-67.0781
438.875	-66.9887
439	-66.8972
439.125	-66.8038
439.25	-66.7087
439.375	-66.6121
439.5	-66.5143
439.625	-66.4154
439.75	-66.3156
439.875	-66.215
440	-66.1139
440.125	-66.0124
440.25	-65.9106
440.375	-65.8086
440.5	-65.7067
440.625	-65.6048
440.75	-65.5032
440.875	-65.4019
441	-65.3009
441.125	-65.2005
441.25	-65.1007
441.375	-65.0014
441.5	-64.9029
441.625	-64.8052
441.75	-64.7083
441.875	-64.6123
442	-64.5172
442.125	-64.4231
442.25	-64.3299
442.375	-64.2379
442.5	-64.1468
442.625	-64.0569
442.75	-63.9681
442.875	-63.8805
443	-63.794
443.125	-63.7087
443.25	-63.6246
443.375	-63.5417
443.5	-63.4601
443.625	-63.3797
443.75	-63.3005
443.875	-63.2225
444	-63.1458
444.125	-63.0704
444.25	-62.9963
444.375	-62.9233
444.5	-62.8517
444.625	-62.7813
444.75	-62.7122
444.875	-62.6444
445	-62.5778
445.125	-62.5125
445.25	-62.4484
445.375	-62.3856
445.5	-62.3241
445.625	-62.2638
445.75	-62.2048
445.875	-62.147
446	-62.0904
446.125	-62.0351
446.25	-61.981
446.375	-61.9281
446.5	-61.8765
446.625	-61.826
446.75	-61.7768
446.875	-61.7288
447	-61.682
447.125	-61.6364
447.25	-61.592
447.375	-61.5487
447.5	-61.5067
447.625	-61.4658
447.75	-61.4261
447.875	-61.3876
448	-61.3502
448.125	-61.314
448.25	-61.2789
448.375	-61.245
448.5	-61.2123
448.625	-61.1807
448.75	-61.1502
448.875	-61.1208
449	-61.0926
449.125	-61.0655
449.25	-61.0396
449.375	-61.0147
449.5	-60.991
449.625	-60.9684
449.75	-60.9469
449.875	-60.9265
450	-60.9072
450.125	-60.889
450.25	-60.8719
450.375	-60.8559
450.5	-60.8409
450.625	-60.8271
450.75	-60.8144
450.875	-60.8027
451	-60.7922
451.125	-60.7827
451.25	-60.7743
451.375	-60.767
451.5	-60.7608
451.625	-60.7556
451.75	-60.7515
451.875	-60.7486
452	-60.7466
452.125	-60.7458
452.25	-60.746
452.375	-60.7473
452.5	-60.7497
452.625	-60.7532
452.75	-60.7577
452.875	-60.7634
453	-60.77
453.125	-60.7778
453.25	-60.7867
453.375	-60.7966
453.5	-60.8076
453.625	-60.8197
453.75	-60.8329
453.875	-60.8472
454	-60.8626
454.125	-60.879
454.25	-60.8965
454.375	-60.9152
454.5	-60.9349
454.625	-60.9558
454.75	-60.9777
454.875	-61.0007
455	-61.0249
455.125	-61.0501
455.25	-61.0765
455.375	-61.104
455.5	-61.1326
455.625	-61.1623
455.75	-61.1932
455.875	-61.2252
456	-61.2583
456.125	-61.2926
456.25	-61.328
456.375	-61.3646
456.5	-61.4023
456.625	-61.4411
456.75	-61.4811
456.875	-61.5223
457	-61.5647
457.125	-61.6082
457.25	-61.6529
457.375	-61.6988
457.5	-61.7459
457.625	-61.7942
457.75	-61.8436
457.875	-61.8943
458	-61.9462
458.125	-61.9992
458.25	-62.0535
458.375	-62.109
458.5	-62.1658
458.625	-62.2237
458.75	-62.2829
458.875	-62.3434
459	-62.405
459.125	-62.4679
459.25	-62.5321
459.375	-62.5975
459.5	-62.6641
459.625	-62.732
459.75	-62.8012
459.875	-62.8715
460	-62.9432
460.125	-63.0161
460.25	-63.0902
460.375	-63.1656
460.5	-63.2422
460.625	-63.3201
460.75	-63.3992
460.875	-63.4795
461	-63.561
461.125	-63.6438
461.25	-63.7277
461.375	-63.8129
461.5	-63.8992
461.625	-63.9866
461.75	-64.0752
461.875	-64.1649
462	-64.2557
462.125	-64.3475
462.25	-64.4404
462.375	-64.5342
462.5	-64.6291
462.625	-64.7248
462.75	-64.8215
462.875	-64.9189
463	-65.0171
463.125	-65.1161
463.25	-65.2157
463.375	-65.3159
463.5	-65.4165
463.625	-65.5177
463.75	-65.6191
463.875	-65.7208
464	-65.8226
464.125	-65.9245
464.25	-66.0262
464.375	-66.1278
464.5	-66.2289
464.625	-66.3296
464.75	-66.4297
464.875	-66.5289
465	-66.6271
465.125	-66.7241
465.25	-66.8198
465.375	-66.9139
465.5	-67.0063
465.625	-67.0966
465.75	-67.1848
465.875	-67.2705
466	-67.3535
466.125	-67.4336
466.25	-67.5106
466.375	-67.5841
466.5	-67.654
466.625	-67.7201
466.75	-67.782
466.875	-67.8395
467	-67.8925
467.125	-67.9407
467.25	-67.984
467.375	-68.0221
467.5	-68.0549
467.625	-68.0822
467.75	-68.1039
467.875	-68.12
468	-68.1303
468.125	-68.1349
468.25	-68.1336
468.375	-68.1265
468.5	-68.1137
468.625	-68.0952
468.75	-68.071
468.875	-68.0413
469	-68.0063
469.125	-67.9661
469.25	-67.9207
469.375	-67.8706
469.5	-67.8157
469.625	-67.7565
469.75	-67.693
469.875	-67.6255
470	-67.5543
470.125	-67.4796
470.25	-67.4016
470.375	-67.3206
470.5	-67.2369
470.625	-67.1506
470.75	-67.062
470.875	-66.9713
471	-66.8788
471.125	-66.7846
471.25	-66.6889
471.375	-66.592
471.5	-66.4941
471.625	-66.3952
471.75	-66.2957
471.875	-66.1955
472	-66.095
472.125	-65.9942
472.25	-65.8932
472.375	-65.7922
472.5	-65.6913
472.625	-65.5906
472.75	-65.4902
472.875	-65.3902
473	-65.2907
473.125	-65.1917
473.25	-65.0933
473.375	-64.9956
473.5	-64.8987
473.625	-64.8026
473.75	-64.7073
473.875	-64.613
474	-64.5195
474.125	-64.4271
474.25	-64.3357
474.375	-64.2453
474.5	-64.156
474.625	-64.0678
474.75	-63.9808
474.875	-63.8948
475	-63.8101
475.125	-63.7265
475.25	-63.6441
475.375	-63.5629
475.5	-63.4829
475.625	-63.4042
475.75	-63.3266
475.875	-63.2504
476	-63.1753
476.125	-63.1015
476.25	-63.0289
476.375	-62.9576
476.5	-62.8876
476.625	-62.8187
476.75	-62.7512
476.875	-62.6849
477	-62.6198
477.125	-62.556
477.25	-62.4934
477.375	-62.4321
477.5	-62.372
477.625	-62.3131
477.75	-62.2555
477.875	-62.199
478	-62.1439
478.125	-62.0899
478.25	-62.0371
478.375	-61.9856
478.5	-61.9353
478.625	-61.8861
478.75	-61.8382
478.875	-61.7915
479	-61.7459
479.125	-61.7016
479.25	-61.6584
479.375	-61.6163
479.5	-61.5755
479.625	-61.5358
479.75	-61.4973
479.875	-61.4599
480	-61.4237
480.125	-61.3887
480.25	-61.3547
480.375	-61.3219
480.5	-61.2903
480.625	-61.2598
480.75	-61.2304
480.875	-61.2021
481	-61.175
481.125	-61.149
481.25	-61.124
481.375	-61.1002
481.5	-61.0775
481.625	-61.056
481.75	-61.0355
481.875	-61.0161
482	-60.9978
482.125	-60.9806
482.25	-60.9645
482.375	-60.9494
482.5	-60.9355
482.625	-60.9226
482.75	-60.9109
482.875	-60.9002
483	-60.8906
483.125	-60.8821
483.25	-60.8746
483.375	-60.8682
483.5	-60.8629
483.625	-60.8587
483.75	-60.8556
483.875	-60.8535
484	-60.8525
484.125	-60.8526
484.25	-60.8537
484.375	-60.856
484.5	-60.8592
484.625	-60.8636
484.75	-60.8691
484.875	-60.8756
485	-60.8832
485.125	-60.8919
485.25	-60.9016
485.375	-60.9124
485.5	-60.9243
485.625	-60.9373
485.75	-60.9514
485.875	-60.9666
486	-60.9828
486.125	-61.0002
486.25	-61.0186
486.375	-61.0382
486.5	-61.0588
486.625	-61.0805
486.75	-61.1033
486.875	-61.1273
487	-61.1523
487.125	-61.1785
487.25	-61.2057
487.375	-61.2341
487.5	-61.2636
487.625	-61.2943
487.75	-61.326
487.875	-61.3589
488	-61.393
488.125	-61.4282
488.25	-61.4645
488.375	-61.5019
488.5	-61.5406
488.625	-61.5804
488.75	-61.6213
488.875	-61.6634
489	-61.7067
489.125	-61.7511
489.25	-61.7968
489.375	-61.8436
489.5	-61.8916
489.625	-61.9408
489.75	-61.9912
489.875	-62.0428
490	-62.0956
490.125	-62.1497
490.25	-62.2049
490.375	-62.2614
490.5	-62.319
490.625	-62.3779
490.75	-62.4381
490.875	-62.4995
491	-62.5621
491.125	-62.6259
491.25	-62.691
491.375	-62.7573
491.5	-62.8249
491.625	-62.8937
491.75	-62.9638
491.875	-63.0351
492	-63.1076
492.125	-63.1814
492.25	-63.2565
492.375	-63.3327
492.5	-63.4102
492.625	-63.4889
492.75	-63.5689
492.875	-63.65
493	-63.7324
493.125	-63.8159
493.25	-63.9006
493.375	-63.9864
493.5	-64.0734
493.625	-64.1616
493.75	-64.2508
493.875	-64.3411
494	-64.4324
494.125	-64.5247
494.25	-64.6181
494.375	-64.7123
494.5	-64.8075
494.625	-64.9035
494.75	-65.0004
494.875	-65.098
495	-65.1962
495.125	-65.2952
495.25	-65.3946
495.375	-65.4945
495.5	-65.5949
495.625	-65.6955
495.75	-65.7964
495.875	-65.8973
496	-65.9983
496.125	-66.0991
496.25	-66.1996
496.375	-66.2998
496.5	-66.3994
496.625	-66.4983
496.75	-66.5964
496.875	-66.6934
497	-66.7892
497.125	-66.8836
497.25	-66.9764
497.375	-67.0674
497.5	-67.1563
497.625	-67.243
497.75	-67.3272
497.875	-67.4087
498	-67.4872
498.125	-67.5626
498.25	-67.6345
498.375	-67.7027
498.5	-67.767
498.625	-67.8272
498.75	-67.883
498.875	-67.9342
499	-67.9806
499.125	-68.0221
499.25	-68.0584
499.375	-68.0893
499.5	-68.1149
499.625	-68.1349
499.75	-68.1492
499.875	-68.1579
500	-68.1607
